Folder: CNT-Growths/data

Note: data/150527_IR_calibration_100step_01.txt
# Set Temp (C), Readout (C)
100 107.5
200 189
300 271
400 344
500 416
600 484
700 554
800 626
900 703
1000 796

Note: data/150601_thermocouple_calibration_900C_LHS_1.txt
# Position (cm) (\pm 1), Temperature (C)
6 907
8 913
10 914
12 913
14 909
16 901
18 889
20 872
22 849
20 871
18 888
16 900
14 907
12 912
10 914
8 912
6 908

Note: data/150601_thermocouple_calibration_900C_RHS_1.txt
# Position (cm) (\pm 1), Temperature (C)
6 895
8 904
10 911
12 913
14 913
16 908
18 902
20 888
22 871
24 850
22 870
20 889 
18 901
16 908
14 913
12 913
10 911
8 905
6 893

Note: data/150603_graphene_furnace_ramp_time_1000C.txt
# Time (min), Furnace (C), Thermocouple (C)
0 44 22
2 520 290
4 790 750
6 975 963
8 996 992
10 1000 991
12 1000 988
14 1000 986
16 1000 985
18 1000 984
20 1000 983
22 1000 982
24 1000 982
27 1000 981
33 1000 980
45 1000 980

Note: data/150604_CNT_furnace_ramp_time.txt
Time (min), Furnace (C), Thermocouple (C)
time furnace thermocouple
2 500 400
4 750 800
6 900 942
9 900 928
15 900 921
20 900 918
30 900 916
45 900 915

File: 150715_Raman_S8_no_CNT.txt
3002.22	288.167
2994.2	307.502
2986.17	257.038
2978.13	293.72
2970.08	356.392
2962.02	303.877
2953.95	310.02
2945.88	298.825
2937.79	283.331
2929.69	252.751
2921.59	271.87
2913.47	273.702
2905.34	264.767
2897.21	296.702
2889.06	277.022
2880.91	276.693
2872.75	244.228
2864.57	273.895
2856.39	279.981
2848.19	294.591
2839.99	281.447
2831.78	261.945
2823.55	291.412
2815.32	265.57
2807.08	277.985
2798.83	264.937
2790.56	290.025
2782.29	224.131
2774.01	263.99
2765.72	255.237
2757.42	229.65
2749.1	271.462
2740.78	245.916
2732.45	228.827
2724.11	283.071
2715.76	276.449
2707.4	223.823
2699.02	269.52
2690.64	229.548
2682.25	235.526
2673.85	237.326
2665.44	272.39
2657.01	226.373
2648.58	259.291
2640.14	219.615
2631.69	256.6
2623.23	233.557
2614.75	243.598
2606.27	220.625
2597.78	205.944
2589.27	236.551
2580.76	230.103
2572.24	199.046
2563.7	237.748
2555.16	227.227
2546.6	235.132
2538.04	212.385
2529.46	212.129
2520.88	222.06
2512.28	209.584
2503.68	223.557
2495.06	198.929
2486.43	206.799
2477.79	214.649
2469.15	194.165
2460.49	171.709
2451.82	193.696
2443.14	211.599
2434.45	201.28
2425.75	209.078
2417.04	204.809
2408.32	188.518
2399.58	206.317
2390.84	222.073
2382.09	215.809
2373.33	193.594
2364.55	195.353
2355.76	195.116
2346.97	224.708
2338.16	196.629
2329.34	226.147
2320.52	204.078
2311.68	213.725
2302.83	171.958
2293.97	205.31
2285.1	185.343
2276.22	191.025
2267.33	198.661
2258.42	186.632
2249.51	200.14
2240.58	190.098
2231.65	182.037
2222.7	201.365
2213.74	214.788
2204.77	163.82
2195.79	192.838
2186.8	196.494
2177.8	361.419
2168.79	180.489
2159.77	195.776
2150.73	197.473
2141.69	183.696
2132.63	216.303
2123.56	216.039
2114.48	233.114
2105.39	203.966
2096.29	178.732
2087.18	186.191
2078.06	193.632
2068.92	201.054
2059.78	175.946
2050.62	175.73
2041.45	185.053
2032.27	196.259
2023.08	199.824
2013.88	159.663
2004.67	161.366
1995.44	123.246
1986.21	179.907
1976.96	168.337
1967.7	149.239
1958.43	164.15
1949.15	163.948
1939.85	178.803
1930.55	178.583
1921.23	161.466
1911.91	166.892
1902.57	132.975
1893.22	145.905
1883.85	136.383
1874.48	164.205
1865.1	177.047
1855.7	152.631
1846.29	146.866
1836.87	159.681
1827.44	137.23
1818	168.548
1808.54	142.441
1799.07	144.112
1789.59	149.47
1780.1	114.267
1770.6	127.011
1761.09	143.4
1751.56	108.334
1742.03	146.712
1732.48	111.729
1722.92	129.884
1713.34	124.241
1703.76	155.109
1694.16	158.561
1684.55	136.521
1674.93	136.351
1665.3	152.523
1655.66	134.199
1646	143.088
1636.33	151.955
1626.65	133.698
1616.95	166.012
1607.25	162.201
1597.53	136.799
1587.8	161.796
1578.06	143.639
1568.31	159.599
1558.54	141.49
1548.76	135.947
1538.98	119.698
1529.17	135.607
1519.36	121.181
1509.53	126.369
1499.69	120.878
1489.84	111.85
1479.98	120.575
1470.1	118.653
1460.21	137.96
1450.31	139.554
1440.4	149.965
1430.47	126.869
1420.53	124.95
1410.58	163.462
1400.62	138.68
1390.64	124.48
1380.65	127.825
1370.65	131.162
1360.64	118.771
1350.61	130.832
1340.57	118.472
1330.52	132.243
1320.45	107.746
1310.38	133.645
1300.29	104.008
1290.18	117.727
1280.07	131.411
1269.94	136.426
1259.8	105.208
1249.65	132.636
1239.48	129.028
1229.3	132.301
1219.11	123.553
1208.9	118.255
1198.68	123.241
1188.45	124.794
1178.21	129.758
1167.95	163.697
1157.68	386.584
1147.4	163.282
1137.1	105.319
1126.79	122.15
1116.47	113.523
1106.13	121.84
1095.78	160.557
1085.42	178.92
1075.05	220.837
1064.66	535.394
1054.26	168.149
1043.84	119.233
1033.41	132.499
1022.97	113.904
1012.51	100.376
1002.05	116.955
991.566	108.463
981.07	118.324
970.562	114.844
960.038	146.28
949.503	127.831
938.954	124.352
928.392	145.719
917.816	157.109
907.226	142.043
896.624	135.263
886.007	153.211
875.376	153.015
864.732	146.245
854.075	147.699
843.404	163.899
832.718	193.152
822.019	138.956
811.306	223.677
800.579	469.607
789.839	366.408
779.085	203.298
768.318	146.186
757.536	155.731
746.739	111.787
735.931	131.059
725.107	129.274
714.269	142.018
703.417	161.176
692.552	231.794
681.671	127
670.779	131.653
659.87	80.1722
648.948	137.718
638.011	155.132
627.062	108.611
616.097	143.564
605.118	154.53
594.124	167.057
583.116	154.129
572.095	147.581
561.06	201.274
550.009	204.178
538.945	252.916
527.864	307.84
516.773	351.585
505.663	385.768
494.542	657.31
483.404	1267.37
472.253	4747.6
461.087	11348.4
449.905	1605
438.71	415.569
427.501	240.279
416.277	171.404
405.038	231.871
393.784	365.224
382.515	121.065
371.232	102.305
359.933	130.037
348.62	140.689
337.292	106.536
325.95	117.19
314.593	89.3176
303.22	130.725
291.833	144.377
280.431	173.331
269.013	454.971
257.579	510.979
246.132	504.196
234.671	686.636
223.193	1458.32
211.7	3386.1
200.193	3147.59
188.669	1243.11
177.13	566.923
165.577	364.835
154.009	318.998
142.425	409.168
130.825	1815.45
119.21	383.994
107.581	168.433
100.927	124.727

File: 150715_Raman_S8_with_CNT.txt
3002.22	176.83
2994.2	194.097
2986.17	161.193
2978.13	169.705
2970.08	156.465
2962.02	197.52
2953.95	182.11
2945.88	212.209
2937.79	190.329
2929.69	198.744
2921.59	161.827
2913.47	185.342
2905.34	170.053
2897.21	195.651
2889.06	171.797
2880.91	199.476
2872.75	186.385
2864.57	164.765
2856.39	170.981
2848.19	192.124
2839.99	144.988
2831.78	189.537
2823.55	148.897
2815.32	174.214
2807.08	176.128
2798.83	167.44
2790.56	188.41
2782.29	234.703
2774.01	160.506
2765.72	185.627
2757.42	170.657
2749.1	208.332
2740.78	199.675
2732.45	203.635
2724.11	224.36
2715.76	203.148
2707.4	244.742
2699.02	240.27
2690.64	250.416
2682.25	270.96
2673.85	287.289
2665.44	218.328
2657.01	207.682
2648.58	188.764
2640.14	192.681
2631.69	163.479
2623.23	198.42
2614.75	173.409
2606.27	150.52
2597.78	181.23
2589.27	174.842
2580.76	145.869
2572.24	145.693
2563.7	149.617
2555.16	145.343
2546.6	153.347
2538.04	185.837
2529.46	159.097
2520.88	152.793
2512.28	158.714
2503.68	170.716
2495.06	148.182
2486.43	141.921
2477.79	190.35
2469.15	153.714
2460.49	175.75
2451.82	145.272
2443.14	181.371
2434.45	173.101
2425.75	144.746
2417.04	178.706
2408.32	182.501
2399.58	148.228
2390.84	128.042
2382.09	143.873
2373.33	155.673
2364.55	149.505
2355.76	171.224
2346.97	153.12
2338.16	154.92
2329.34	190.44
2320.52	156.526
2311.68	182.062
2302.83	158.122
2293.97	136.215
2285.1	134.078
2276.22	151.639
2267.33	167.19
2258.42	157.164
2249.51	147.162
2240.58	170.5
2231.65	142.889
2222.7	130.985
2213.74	142.541
2204.77	142.368
2195.79	148.038
2186.8	147.857
2177.8	299.24
2168.79	159.141
2159.77	135.686
2150.73	151.009
2141.69	179.829
2132.63	133.258
2123.56	169.745
2114.48	196.509
2105.39	180.875
2096.29	174.888
2087.18	138.204
2078.06	161.04
2068.92	166.587
2059.78	170.208
2050.62	137.528
2041.45	154.529
2032.27	152.434
2023.08	127.507
2013.88	115.946
2004.67	119.6
1995.44	100.493
1986.21	136.351
1976.96	117.269
1967.7	141.683
1958.43	145.282
1949.15	143.219
1939.85	158.1
1930.55	159.785
1921.23	146.446
1911.91	112.512
1902.57	116.119
1893.22	140.293
1883.85	149.461
1874.48	164.205
1865.1	124.865
1855.7	119.127
1846.29	117.121
1836.87	133.687
1827.44	89.0143
1818	151.878
1808.54	135.041
1799.07	153.35
1789.59	116.254
1780.1	141.913
1770.6	130.692
1761.09	126.853
1751.56	124.86
1742.03	80.6916
1732.48	120.887
1722.92	129.884
1713.34	147.994
1703.76	109.489
1694.16	129.401
1684.55	127.42
1674.93	127.261
1665.3	128.919
1655.66	137.826
1646	150.333
1636.33	166.426
1626.65	169.833
1616.95	225.56
1607.25	356.841
1597.53	444.595
1587.8	364.94
1578.06	321.393
1568.31	240.296
1558.54	220.294
1548.76	160.99
1538.98	141.137
1529.17	110.627
1519.36	110.489
1509.53	147.727
1499.69	115.545
1489.84	94.0956
1479.98	117.029
1470.1	113.34
1460.21	114.967
1450.31	93.6248
1440.4	125.264
1430.47	105.724
1420.53	144.309
1410.58	98.4285
1400.62	103.571
1390.64	99.9345
1380.65	124.323
1370.65	111.925
1360.64	127.504
1350.61	113.388
1340.57	111.503
1330.52	102.662
1320.45	93.8436
1310.38	98.9322
1300.29	100.541
1290.18	115.995
1280.07	133.14
1269.94	105.341
1259.8	106.933
1249.65	91.2949
1239.48	101.502
1229.3	134.019
1219.11	120.121
1208.9	94.2614
1198.68	106.124
1188.45	128.213
1178.21	121.221
1167.95	189.274
1157.68	407.02
1147.4	149.675
1137.1	117.21
1126.79	110.275
1116.47	111.829
1106.13	133.686
1095.78	145.346
1085.42	182.296
1075.05	207.35
1064.66	548.863
1054.26	178.237
1043.84	119.233
1033.41	97.2778
1022.97	97.1537
1012.51	110.413
1002.05	103.589
991.566	83.433
981.07	86.6595
970.562	109.85
960.038	101.399
949.503	126.171
938.954	116.062
928.392	155.655
917.816	165.378
907.226	145.346
896.624	141.861
886.007	164.743
875.376	131.625
864.732	157.748
854.075	167.392
843.404	180.289
832.718	152.23
822.019	170.017
811.306	215.514
800.579	451.671
789.839	363.151
779.085	167.518
768.318	123.446
757.536	120.043
746.739	126.368
735.931	131.059
725.107	103.42
714.269	108.128
703.417	154.729
692.552	215.697
681.671	109.317
670.779	112.386
659.87	123.465
648.948	116.9
638.011	129.543
627.062	119.792
616.097	132.398
605.118	117.889
594.124	157.511
583.116	166.841
572.095	158.69
561.06	167.993
550.009	234.251
538.945	256.077
527.864	269.952
516.773	326.359
505.663	390.491
494.542	630.578
483.404	1257.94
472.253	4554.69
461.087	11293.6
449.905	1686.35
438.71	378.074
427.501	218.435
416.277	180.753
405.038	203.859
393.784	379.211
382.515	155.211
371.232	130.207
359.933	136.229
348.62	131.412
337.292	117.344
325.95	100.229
314.593	100.097
303.22	133.801
291.833	152.056
280.431	219.348
269.013	458.035
257.579	507.919
246.132	508.779
234.671	750.722
223.193	1440.04
211.7	3323.71
200.193	3174.94
188.669	1227.93
177.13	595.724
165.577	364.835
154.009	382.496
142.425	416.717
130.825	1860.69
119.21	328.277
107.581	166.93
100.927	124.727